time,attitude_roll,attitude_pitch,attitude_yaw,gravity_x,gravity_y,gravity_z,rotationRate_x,rotationRate_y,rotationRate_z,userAcceleration_x,userAcceleration_y,userAcceleration_z
231, 28, -15, 38, 229, 202, -339, 0, 0, 0, 0, 0, 0
233, 33, -5, 27, 262, 187, -343, -36, 41, 328, 2722, 1816, 2463
235, 18, 36, -3, 230, 103, -353, -36, 41, 328, 2722, 1820, 2458
237, 60, 12, -14, 158, 88, -350, -36, 41, 328, 2719, 1828, 2456
239, 79, 11, 22, 185, 187, -395, -37, 41, 328, 2720, 1841, 2445
240, 71, 2, 10, 208, 202, -389, -37, 41, 328, 2721, 1845, 2441
241, 65, -1, -7, 228, 246, -420, -37, 41, 328, 2723, 1856, 2431
242, 65, -1, -7, 228, 246, -420, -37, 41, 328, 2723, 1856, 2431
243, 24, 35, 15, 171, 246, -428, -37, 41, 328, 2724, 1862, 2425
244, -6, -9, 0, 209, 176, -442, -37, 41, 328, 2729, 1867, 2415
245, -7, 13, 5, 261, 165, -442, -37, 41, 328, 2731, 1868, 2413
246, 2, 22, 18, 154, 136, -401, -37, 41, 328, 2731, 1867, 2413
247, 0, 8, -1, 166, 114, -379, -37, 41, 328, 2732, 1868, 2412
248, 20, -12, 0, 176, 110, -377, -38, 41, 328, 2734, 1870, 2408
249, 12, 9, 6, 193, 163, -348, -38, 41, 328, 2735, 1871, 2406
250, -71, 46, 25, 136, 108, -355, -37, 41, 328, 2736, 1867, 2408
251, -89, 16, 20, 150, 170, -352, -37, 41, 328, 2735, 1861, 2414
252, -172, 15, 65, 114, 99, -432, -37, 42, 328, 2740, 1832, 2431
253, -213, 38, 87, 212, 200, -492, -36, 42, 328, 2743, 1813, 2441
254, -218, 50, 89, 207, 182, -513, -36, 42, 328, 2744, 1805, 2445
255, -276, 59, 91, 154, 314, -546, -35, 42, 328, 2746, 1770, 2470
256, -360, 74, 115, 199, 372, -581, -35, 42, 328, 2749, 1736, 2490
257, -412, 77, 128, 184, 375, -560, -34, 42, 328, 2750, 1716, 2503
258, -534, 134, 140, 279, 341, -484, -32, 42, 328, 2748, 1636, 2557
259, -486, 163, 210, 258, 207, -445, -31, 42, 328, 2745, 1573, 2600
260, -420, 106, 189, 30, 197, -456, -30, 42, 328, 2744, 1537, 2622
261, -160, -204, 141, 134, 344, -523, -29, 42, 328, 2769, 1484, 2626
262, -148, -236, 161, 7, 304, -541, -29, 42, 328, 2787, 1468, 2617
263, -195, -228, 115, 161, 416, -398, -29, 43, 328, 2808, 1451, 2604
264, -468, -49, 505, 311, 410, -351, -28, 43, 328, 2837, 1392, 2604
265, -632, 49, 306, 62, 167, -440, -26, 44, 327, 2856, 1302, 2630
266, -686, 58, 169, 160, 126, -306, -25, 44, 327, 2859, 1271, 2642
267, -645, 83, 129, 251, -28, -238, -23, 44, 328, 2860, 1157, 2693
268, -429, -32, 84, 311, 30, -241, -22, 44, 328, 2862, 1101, 2714
269, -300, -76, 62, 450, 108, -132, -21, 44, 328, 2869, 1077, 2717
270, -300, -76, 62, 450, 108, -132, -21, 44, 328, 2869, 1077, 2717
271, -181, -83, 199, 105, 98, -214, -20, 44, 328, 2883, 1026, 2721
272, -132, -84, 61, 343, 287, -346, -20, 45, 328, 2906, 990, 2710
273, -229, 15, 165, -104, 206, -365, -19, 45, 328, 2913, 964, 2712
274, -245, -108, 121, -116, 122, -274, -19, 45, 328, 2918, 944, 2714
275, -274, -107, -20, 295, 276, -399, -18, 45, 328, 2931, 924, 2707
276, -437, 162, 151, 324, 200, -386, -17, 45, 328, 2930, 875, 2723
277, -297, 127, 224, 194, 23, -352, -17, 45, 328, 2925, 838, 2741
278, -135, 18, 253, -89, -83, -111, -16, 45, 328, 2925, 802, 2751
279, -41, -21, 179, 288, 142, -228, -15, 45, 327, 2940, 778, 2742
280, -41, -21, 179, 288, 142, -228, -15, 45, 327, 2940, 778, 2742
281, 34, -227, 6, 567, 169, -302, -15, 46, 327, 2962, 764, 2723
282, 30, -175, -34, 333, 328, -283, -15, 46, 327, 2986, 764, 2696
283, 30, -175, -34, 333, 328, -283, -15, 46, 327, 2986, 764, 2696
284, 135, -162, 20, 208, 215, -293, -16, 47, 327, 3004, 774, 2674
285, 83, -81, -48, 354, 432, -336, -17, 47, 327, 3040, 807, 2622
286, 83, -81, -48, 354, 432, -336, -17, 47, 327, 3040, 807, 2622
287, 16, -113, -96, 204, 276, -295, -17, 47, 327, 3044, 816, 2616
288, -54, 21, -129, 400, 313, -346, -18, 48, 327, 3057, 842, 2591
289, -91, 126, -162, 457, 339, -246, -18, 48, 328, 3049, 853, 2597
290, -157, 260, -188, 507, 223, -342, -18, 47, 328, 3030, 858, 2618
291, -113, 194, -240, 663, 177, -381, -18, 47, 329, 3007, 868, 2641
292, -107, 260, -488, 656, 167, -190, -18, 46, 329, 2983, 890, 2661
293, -53, 167, -674, 832, 205, -110, -19, 46, 330, 2958, 927, 2676
294, 151, -43, -1000, 911, 295, -242, -21, 45, 332, 2918, 1046, 2676
295, 121, -9, -1097, 880, 195, -237, -23, 44, 334, 2895, 1129, 2667
296, 95, 152, -1226, 591, 148, -187, -25, 43, 335, 2850, 1236, 2668
297, 194, -67, -1441, 646, 163, -567, -28, 42, 339, 2765, 1437, 2657
298, 122, 71, -1437, 501, 317, -539, -30, 41, 341, 2716, 1543, 2649
299, 37, 64, -1459, 262, 140, -561, -32, 40, 343, 2656, 1640, 2651
300, 169, -409, -1471, 406, 264, -580, -35, 39, 346, 2574, 1820, 2614
301, 66, -225, -1458, 378, 366, -341, -37, 38, 349, 2514, 1951, 2578
302, 25, -428, -1581, 456, 334, -492, -39, 36, 352, 2445, 2075, 2546
303, -124, -269, -1731, 472, 384, -283, -41, 34, 356, 2328, 2221, 2533
304, -77, -339, -1838, 342, 364, -257, -42, 34, 358, 2285, 2274, 2526
305, 27, -501, -1853, -87, 273, -405, -43, 33, 0, 2217, 2364, 2503
306, -173, -367, -1761, -94, 225, -301, -46, 30, 6, 2034, 2562, 2464
307, -145, -367, -1653, -395, 227, -245, -47, 28, 10, 1920, 2660, 2451
308, -133, -442, -1652, -389, 166, -241, -47, 26, 12, 1846, 2719, 2443
309, -123, -407, -1553, -312, 223, -334, -49, 24, 17, 1681, 2846, 2418
310, -210, -297, -1472, -346, 215, -312, -49, 23, 20, 1595, 2896, 2416
311, -187, -270, -1430, -347, 215, -245, -50, 21, 22, 1519, 2934, 2419
312, -376, 86, -1380, -95, 432, -265, -50, 19, 26, 1337, 3004, 2441
313, -524, 416, -1389, 28, 395, -250, -50, 16, 29, 1154, 3026, 2506
314, -509, 513, -1374, -54, 422, -213, -49, 15, 30, 1082, 3030, 2533
315, -580, 763, -1303, -267, 288, -196, -48, 11, 33, 808, 3023, 2641
316, -580, 863, -1323, -58, 279, -270, -47, 8, 35, 626, 3007, 2709
317, -496, 845, -1313, -56, 196, -367, -47, 7, 36, 509, 2995, 2746
318, -339, 854, -1246, -495, 170, -247, -46, 3, 38, 226, 2966, 2814
319, -294, 757, -1198, -404, 96, -280, -46, 1, 39, 99, 2952, 2836
320, -190, 730, -1080, -369, 165, -459, -45, 0, 40, -61, 2935, 2855
321, -269, 936, -1002, -245, 183, -386, -45, -4, 42, -295, 2902, 2875
322, -87, 805, -884, -514, -83, -301, -45, -6, 43, -437, 2881, 2877
323, -226, 806, -804, -571, 203, -224, -44, -7, 44, -543, 2861, 2879
324, -114, 842, -540, -438, 158, -293, -44, -10, 45, -747, 2818, 2876
325, -113, 834, -514, -553, 116, -199, -44, -12, 45, -866, 2796, 2864
326, -42, 802, -457, -402, 235, -166, -44, -13, 45, -944, 2783, 2852
327, -86, 893, -401, -285, 209, -285, -44, -16, 46, -1127, 2752, 2815
328, -29, 860, -312, -171, 375, -279, -44, -17, 46, -1199, 2742, 2795
329, -37, 832, -276, -264, 350, -304, -44, -18, 46, -1267, 2734, 2773
330, -56, 664, -297, -143, 368, -259, -44, -20, 46, -1399, 2712, 2731
331, -131, 785, -272, -237, 340, -197, -44, -21, 46, -1480, 2693, 2707
332, -143, 789, -205, -250, 309, -349, -44, -22, 45, -1541, 2678, 2688
333, -134, 632, -223, -187, 372, -292, -45, -24, 45, -1657, 2648, 2647
334, -100, 573, -172, 2, 352, -302, -45, -24, 45, -1707, 2634, 2630
335, -53, 607, -89, -108, 383, -161, -45, -25, 45, -1759, 2624, 2606
336, 0, 390, -148, 2, 365, -265, -45, -26, 45, -1832, 2616, 2563
337, 35, 334, -114, -23, 370, -240, -45, -27, 45, -1859, 2613, 2547
338, 43, 386, -97, 30, 424, -264, -46, -27, 45, -1884, 2613, 2528
339, -6, 307, -162, -155, 290, -398, -46, -28, 45, -1935, 2605, 2498
340, -41, 379, -172, -127, 292, -204, -46, -29, 45, -1981, 2593, 2475
341, -23, 327, -155, -86, 356, -272, -46, -29, 45, -2005, 2586, 2462
342, 17, 261, -136, 68, 417, -231, -46, -30, 45, -2054, 2575, 2433
343, -5, 298, -121, -42, 421, -300, -46, -30, 45, -2084, 2569, 2414
344, 2, 231, -62, -12, 333, -293, -46, -31, 45, -2111, 2564, 2395
345, 7, 218, -89, 15, 430, -181, -47, -31, 45, -2133, 2561, 2378
346, 26, 207, -89, 15, 392, -110, -47, -31, 45, -2149, 2559, 2367
347, 46, 179, -98, -10, 370, -215, -47, -32, 45, -2171, 2557, 2349
348, 36, 203, -121, 89, 406, -265, -47, -32, 45, -2204, 2554, 2321
349, -18, 231, -118, 16, 333, -157, -47, -33, 45, -2226, 2549, 2307
350, -15, 235, -122, 46, 309, -181, -47, -33, 45, -2239, 2544, 2298
351, 15, 151, -68, 18, 230, -288, -48, -34, 45, -2281, 2532, 2271
352, 36, 101, 25, -95, 301, -277, -48, -34, 45, -2303, 2536, 2244
353, 31, 70, 25, -30, 326, -285, -48, -34, 45, -2304, 2538, 2240
354, 44, 54, 17, -11, 366, -277, -48, -34, 45, -2305, 2541, 2236
355, 25, 58, 24, -15, 433, -218, -48, -34, 45, -2306, 2551, 2224
356, 25, 58, 24, -15, 433, -218, -48, -34, 45, -2306, 2551, 2224
357, 19, 54, 38, -121, 379, -171, -48, -34, 45, -2307, 2557, 2216
358, 34, 26, 12, 0, 420, -175, -49, -34, 45, -2307, 2567, 2204
359, 2, 44, -14, -1, 371, -172, -49, -34, 45, -2309, 2569, 2199
360, 0, 24, -9, -53, 349, -231, -49, -34, 45, -2311, 2569, 2197
361, 6, 43, -28, -58, 386, -134, -49, -34, 45, -2318, 2569, 2190
362, 20, 23, -13, -8, 323, -186, -49, -34, 45, -2321, 2570, 2186
363, 30, 20, 3, 9, 304, -232, -49, -34, 45, -2322, 2572, 2182
364, 54, -14, 40, -40, 282, -216, -49, -34, 45, -2320, 2581, 2174
365, 54, -14, 40, -40, 282, -216, -49, -34, 45, -2320, 2581, 2174
366, 70, -129, 94, -84, 222, -195, -49, -34, 44, -2306, 2595, 2173
367, 92, -493, 194, 47, 228, -368, -49, -33, 44, -2249, 2625, 2196
368, 18, -583, 251, -28, 118, -297, -49, -32, 45, -2197, 2644, 2225
369, 38, -626, 273, 107, 141, -296, -49, -32, 45, -2169, 2653, 2241
370, -13, -553, 27, 55, 207, -163, -49, -30, 45, -2048, 2687, 2313
371, -13, -553, 27, 55, 207, -163, -49, -30, 45, -2048, 2687, 2313
372, 18, -660, 328, 5, 153, -174, -48, -28, 45, -1971, 2707, 2356
373, 74, -728, 419, -23, 192, -187, -48, -26, 44, -1820, 2757, 2420
374, 125, -718, 420, 56, 249, -208, -48, -25, 44, -1727, 2790, 2451
375, 131, -695, 423, 9, 268, -245, -48, -24, 44, -1696, 2801, 2459
376, 168, -942, 285, -194, 240, -251, -48, -22, 44, -1531, 2859, 2500
377, 238, -866, 440, 1, 182, -254, -48, -19, 44, -1389, 2908, 2527
378, 284, -865, 464, -165, 188, -263, -49, -18, 44, -1317, 2935, 2534
379, 305, -889, 451, -85, 448, -244, -49, -16, 44, -1186, 2987, 2537
380, 247, -750, 409, -64, 159, -219, -49, -15, 44, -1089, 3021, 2541
381, 350, -745, 477, -262, 183, -115, -50, -14, 44, -1022, 3047, 2537
382, 414, -842, 435, -95, 163, -291, -51, -11, 44, -818, 3132, 2508
383, 436, -834, 446, -88, 133, -338, -51, -10, 44, -744, 3163, 2493
384, 333, -764, 496, -212, 554, -296, -51, -9, 44, -676, 3190, 2477
385, 475, -701, 541, -290, 172, -136, -53, -6, 44, -495, 3264, 2423
386, 534, -804, 692, -455, 145, -41, -53, -5, 44, -404, 3300, 2391
387, 599, -1065, 806, -673, 191, -73, -54, -4, 43, -318, 3331, 2361
388, 528, -883, 766, -22, 338, -267, -55, 0, 43, -68, 3404, 2275
389, 362, -523, 711, -40, 523, -174, -56, 0, 42, 47, 3435, 2230
390, 276, -360, 761, -26, 305, 70, -57, 1, 41, 122, 3449, 2204
391, 212, -53, 748, -56, 515, -216, -57, 3, 40, 263, 3472, 2156
392, 104, 197, 686, -41, 498, -217, -58, 4, 39, 329, 3476, 2140
393, 67, 380, 686, -10, 367, -153, -58, 5, 38, 366, 3475, 2135
394, 135, 404, 726, -215, 137, -114, -58, 6, 35, 443, 3469, 2130
395, 156, 475, 767, -153, 125, -116, -58, 6, 33, 481, 3469, 2122
396, 189, 485, 819, -237, -11, -136, -58, 7, 32, 517, 3469, 2115
397, 175, 656, 916, -367, -1, -138, -58, 8, 28, 618, 3468, 2089
398, 162, 665, 925, -410, 35, -271, -58, 9, 27, 650, 3464, 2085
399, 224, 404, 1030, -451, 95, -303, -58, 9, 25, 691, 3460, 2079
400, -25, 748, 1307, -338, 5, -196, -58, 12, 20, 866, 3423, 2074
401, 63, 562, 1333, -615, -41, -21, -58, 13, 18, 967, 3394, 2077
402, 22, 431, 1343, -235, 59, -165, -57, 14, 16, 1042, 3367, 2085
403, 41, 590, 1415, 387, 159, -312, -57, 16, 12, 1168, 3315, 2101
404, -101, 560, 1691, -370, 157, -230, -56, 17, 10, 1251, 3271, 2123
405, 20, 175, 1654, -163, -237, -266, -55, 20, 7, 1413, 3194, 2138
406, -29, 309, 1580, 75, -141, -269, -54, 23, 2, 1599, 3093, 2155
407, 73, 134, 1552, -123, -222, -325, -53, 25, 359, 1736, 3012, 2164
408, 2, 88, 1600, 303, -151, -394, -53, 27, 356, 1871, 2932, 2162
409, -116, 167, 1732, 206, -162, -429, -51, 29, 353, 2025, 2814, 2179
410, -176, -99, 2009, 435, -63, -390, -50, 32, 350, 2158, 2707, 2187
411, -126, -97, 1706, 844, -268, -456, -49, 34, 348, 2304, 2581, 2190
412, -404, 346, 1532, 1084, 143, -261, -46, 37, 342, 2502, 2339, 2244
413, -306, 280, 1423, 623, 43, -155, -43, 39, 340, 2579, 2203, 2295
414, -248, 205, 1336, 701, 196, -99, -42, 39, 339, 2612, 2147, 2310
415, -173, 210, 1142, 411, 191, -243, -39, 41, 336, 2715, 1957, 2360
416, -129, 38, 982, 199, 173, -147, -38, 42, 334, 2757, 1880, 2373
417, -118, -7, 884, 442, 260, -153, -37, 42, 333, 2794, 1820, 2376
418, -57, -135, 792, 445, 217, -323, -35, 44, 331, 2872, 1704, 2370
419, -26, -124, 670, 422, 248, -378, -34, 45, 329, 2936, 1616, 2353
420, -44, -166, 584, 487, 146, -396, -34, 46, 329, 2962, 1581, 2345
421, -11, -51, 462, 463, 168, -276, -33, 47, 328, 3018, 1506, 2322
422, -28, -7, 410, 339, 84, -199, -32, 47, 327, 3034, 1477, 2321
423, -23, -21, 366, 303, 86, -191, -32, 47, 327, 3046, 1454, 2320
424, 84, -159, 255, 300, 16, -254, -31, 48, 326, 3081, 1405, 2302
425, 93, -147, 175, 315, 0, -308, -31, 49, 325, 3117, 1380, 2269
426, 93, -147, 175, 315, 0, -308, -31, 49, 325, 3117, 1380, 2269
427, 52, -77, 102, 219, 24, -260, -31, 49, 325, 3144, 1368, 2239
428, -51, 73, 101, 165, -46, -335, -31, 50, 324, 3149, 1357, 2239
429, -135, 100, 118, 131, 25, -331, -30, 50, 324, 3147, 1328, 2259
430, -144, 87, 130, 113, 26, -201, -29, 49, 324, 3144, 1301, 2278
431, -96, 55, 125, 314, 117, -232, -29, 50, 324, 3148, 1280, 2285
432, -109, 94, 143, 214, 7, -264, -29, 50, 324, 3149, 1269, 2290
433, -57, 64, 107, 219, 58, -189, -28, 50, 323, 3148, 1244, 2304
434, -77, 100, 132, 177, 8, -275, -28, 50, 323, 3148, 1233, 2311
435, 11, -13, 134, 197, 46, -292, -27, 50, 323, 3152, 1197, 2324
436, 11, -13, 134, 197, 46, -292, -27, 50, 323, 3152, 1197, 2324
437, 41, -27, 139, -282, -353, 184, -26, 50, 322, 3161, 1172, 2325
438, 41, -27, 139, -282, -353, 184, -26, 50, 322, 3161, 1172, 2325
439, 78, -71, -10, 520, 196, -211, -27, 50, 322, 3177, 1174, 2301
440, -48, 197, 41, 429, 92, -271, -26, 50, 322, 3173, 1166, 2312
441, -43, 122, 54, -73, -89, -359, -26, 50, 322, 3159, 1154, 2337
442, 2, 79, 38, 174, -6, -317, -26, 50, 322, 3156, 1150, 2342
443, -30, 161, 94, 166, 56, -275, -26, 50, 322, 3152, 1145, 2350
444, -167, 221, 88, 269, 76, -258, -25, 49, 321, 3138, 1125, 2379
445, -167, 221, 88, 269, 76, -258, -25, 49, 321, 3138, 1125, 2379
446, -172, 472, 92, 279, 15, -301, -24, 49, 321, 3101, 1088, 2443
447, -145, 494, 86, 256, 58, -253, -22, 48, 321, 3049, 1057, 2521
448, -155, 565, 36, 521, 17, -193, -22, 47, 321, 3017, 1042, 2565
449, -153, 650, 28, 578, -95, -262, -22, 47, 321, 3006, 1037, 2581
450, -158, 100, -8, 285, -3, -178, -21, 46, 321, 2954, 1020, 2646
451, -68, 172, -16, 280, 118, -77, -21, 46, 321, 2944, 1015, 2659
452, -168, 204, 12, 261, 46, -209, -20, 45, 321, 2939, 1010, 2667
453, -25, -154, -325, 675, -76, -678, -20, 45, 321, 2931, 1012, 2675
454, -46, 150, -283, 513, 174, -262, -21, 45, 322, 2922, 1036, 2676
455, -18, 228, -251, 603, -123, -135, -21, 45, 322, 2910, 1045, 2685
456, 171, 205, -479, 839, 6, -437, -22, 44, 323, 2871, 1108, 2701
457, 88, 405, -491, 480, 205, -260, -23, 43, 323, 2833, 1157, 2722
458, 194, 437, -553, 419, -130, -379, -23, 42, 324, 2784, 1208, 2749
459, 186, 342, -635, 239, -8, -157, -25, 41, 325, 2705, 1307, 2783
460, 291, 177, -604, 57, 37, -185, -26, 40, 326, 2657, 1383, 2793
461, 256, 102, -548, -171, 95, -267, -27, 40, 327, 2628, 1439, 2792
462, 113, 5, -373, -270, 91, -407, -28, 39, 328, 2593, 1510, 2787
463, 36, 14, -247, -285, 123, -395, -29, 39, 328, 2582, 1535, 2783
464, -69, -36, -108, -180, 154, -390, -29, 39, 328, 2576, 1549, 2781
465, -121, 8, 5, -32, 167, -398, -29, 39, 329, 2575, 1543, 2785
466, -111, 39, 88, 144, 144, -185, -28, 39, 329, 2576, 1529, 2792
467, -38, 37, 82, 218, 141, -175, -28, 39, 328, 2577, 1521, 2795
468, 76, -34, 14, 225, 251, -213, -28, 39, 328, 2583, 1521, 2790
469, 90, 0, 24, 351, 76, -258, -28, 39, 328, 2587, 1525, 2785
470, 34, -48, 18, 165, 230, -137, -29, 39, 328, 2588, 1531, 2780
471, 246, -196, 13, 288, 197, -185, -29, 39, 328, 2622, 1549, 2738
472, 149, -82, -18, 438, 110, -320, -30, 40, 328, 2631, 1560, 2723
473, 127, 56, -61, 452, 105, -217, -30, 40, 328, 2630, 1571, 2717
474, 148, 97, -185, 495, 108, -193, -30, 39, 328, 2612, 1599, 2718
475, 136, 112, -297, 517, 105, -350, -31, 39, 328, 2595, 1629, 2717
476, 98, 146, -431, 630, 291, -382, -31, 39, 329, 2576, 1658, 2717
477, -17, 354, -518, 131, 129, -328, -32, 37, 330, 2496, 1723, 2751
478, 0, 216, -517, -9, 155, -371, -32, 37, 330, 2456, 1755, 2767
479, 0, 174, -472, 13, 141, -378, -32, 36, 331, 2431, 1778, 2775
480, -3, 30, -305, -130, 107, -282, -33, 35, 332, 2388, 1817, 2786
481, 32, -80, -187, -191, 97, -264, -33, 35, 332, 2379, 1835, 2783
482, 7, -28, -35, 11, 138, -242, -33, 35, 332, 2380, 1849, 2772
483, -13, 50, 59, 41, 82, -251, -33, 35, 332, 2380, 1847, 2774
484, 0, 0, 0, 0, 0, 0, -33, 35, 332, 2385, 1841, 2773
485, 47, -22, 97, 267, 105, -172, -33, 35, 332, 2390, 1839, 2770
486, 58, -44, 61, 253, 94, -208, 0, 0, 0, 0, 0, 0