time,attitude_roll,attitude_pitch,attitude_yaw,gravity_x,gravity_y,gravity_z,rotationRate_x,rotationRate_y,rotationRate_z,userAcceleration_x,userAcceleration_y,userAcceleration_z
145, -68, -51, 20, -64, 16, -49, 0, 0, 0, 0, 0, 0
147, -95, -56, 19, -25, 64, -25, 0, 0, 0, 0, 0, 0
149, -110, 6, 2, -8, 82, 35, 9, 42, 357, 2774, -504, 2970
151, -2, 28, -43, 39, -92, 173, 9, 42, 357, 2768, -512, 2975
153, 56, 3, -37, -21, -193, 140, 9, 42, 357, 2766, -504, 2978
154, 89, -3, 9, -82, -131, 34, 9, 42, 357, 2766, -494, 2980
155, 79, 3, 24, -98, -26, 3, 9, 42, 357, 2764, -487, 2982
156, 69, 7, 31, -78, -6, 9, 9, 42, 357, 2764, -485, 2982
157, 37, 22, 19, -26, 47, 20, 9, 42, 357, 2761, -481, 2986
158, 28, 22, 13, -59, 29, 17, 9, 42, 357, 2758, -479, 2989
159, 34, 5, 0, -50, 17, 33, 9, 42, 357, 2757, -476, 2991
160, 36, 4, 5, -46, 5, 12, 8, 42, 357, 2756, -472, 2992
161, 29, 2, -2, -36, 18, 27, 8, 42, 357, 2756, -470, 2993
162, 17, 10, -8, 16, -13, 86, 8, 42, 357, 2755, -469, 2993
163, 50, 80, -118, 381, -135, 222, 8, 42, 357, 2753, -460, 2997
164, 140, 93, -256, 256, 41, 299, 8, 42, 357, 2746, -434, 3007
165, 189, 100, -349, 397, -155, 478, 7, 41, 358, 2738, -376, 3022
166, 336, 257, -415, 475, -108, 338, 5, 41, 358, 2727, -317, 3039
167, 416, 327, -422, 199, -39, 287, 4, 41, 359, 2710, -267, 3059
168, 495, 272, -487, 193, -117, 313, 3, 40, 359, 2681, -178, 3090
169, 629, 358, -519, 138, -32, 226, 1, 40, 0, 2648, -62, 3123
170, 638, 364, -530, 23, 45, 160, 0, 39, 0, 2618, 28, 3149
171, 702, 356, -527, 84, 27, 200, -2, 39, 1, 2583, 130, 3175
172, 683, 665, -500, 141, 6, 108, -5, 37, 2, 2499, 309, 3229
173, 673, 735, -485, -51, 99, 110, -6, 36, 2, 2445, 383, 3263
174, 627, 689, -479, -225, 46, 137, -7, 36, 2, 2397, 444, 3291
175, 749, 318, -505, -210, 60, 101, -10, 34, 3, 2305, 608, 3329
176, 901, 147, -484, -94, -10, -19, -12, 33, 3, 2266, 730, 3332
177, 1144, -137, -493, -143, 29, -8, -13, 33, 3, 2261, 791, 3321
178, 901, 261, -445, -153, 64, -40, -16, 32, 4, 2204, 966, 3313
179, 869, 217, -441, -114, 48, -48, -18, 32, 4, 2167, 1080, 3303
180, 891, 245, -443, -162, 99, -182, -19, 31, 4, 2140, 1163, 3292
181, 846, 257, -422, -187, 59, 13, -22, 30, 5, 2057, 1366, 3267
182, 942, 80, -375, -401, -14, -159, -24, 29, 5, 2021, 1483, 3238
183, 982, -49, -360, -355, 91, -100, -26, 29, 5, 2009, 1557, 3211
184, 815, -138, -213, -295, 79, -190, -29, 29, 5, 2006, 1743, 3116
185, 752, -32, 160, -201, 136, -218, -30, 29, 5, 2011, 1795, 3083
186, 570, 104, 95, -340, 40, -261, -31, 29, 5, 2012, 1832, 3060
187, 386, 185, 117, -176, 134, -252, -32, 29, 4, 1999, 1886, 3036
188, 101, 482, 253, 191, 161, -120, -32, 29, 4, 1981, 1898, 3040
189, -8, 728, 386, -39, 71, 4, -31, 28, 3, 1953, 1885, 3066
190, -444, 1200, 592, 16, 17, -543, -29, 26, 1, 1836, 1804, 3185
191, -497, 1171, 650, 1, -57, -167, -28, 25, 0, 1776, 1747, 3250
192, -451, 1042, 618, -265, -205, 317, -27, 25, 358, 1722, 1689, 3309
193, -457, 871, 594, 310, -17, 271, -25, 23, 357, 1639, 1583, 3402
194, -528, 1117, 562, -125, -129, 196, -23, 22, 356, 1584, 1526, 3454
195, -250, 356, 221, 273, -51, 215, -20, 20, 354, 1446, 1358, 3582
196, -258, 463, 223, -221, -38, 147, -20, 20, 353, 1416, 1328, 3606
197, -258, 346, 180, -337, -13, -25, -19, 19, 353, 1392, 1306, 3623
198, -112, -32, 34, -50, -151, -97, -19, 19, 353, 1376, 1269, 3642
199, 24, 53, 9, 475, 106, 236, -19, 19, 353, 1381, 1266, 3641
200, -165, -2, 118, -381, -186, -169, -18, 18, 353, 1310, 1198, 3691
201, -66, -78, 15, -191, -102, -310, -17, 18, 352, 1320, 1187, 3690
202, -50, -74, 16, -179, -158, -198, -17, 18, 353, 1325, 1182, 3690
203, -123, 148, 16, 57, -19, -46, -17, 18, 353, 1323, 1175, 3693
204, -162, 101, 64, -299, -159, -131, -17, 18, 352, 1311, 1159, 3702
205, -93, 28, 157, -130, -9, 32, -16, 18, 352, 1313, 1129, 3711
206, -169, 63, 252, -207, -75, 73, -16, 18, 352, 1313, 1100, 3720
207, -162, -11, 277, -247, -108, 132, -16, 18, 352, 1315, 1084, 3723
208, -103, 26, 170, 641, -35, 28, -15, 19, 351, 1346, 1050, 3722
209, -124, 303, 243, 417, -77, 255, -15, 19, 351, 1336, 1035, 3730
210, -147, 289, 214, -92, -64, 216, -15, 18, 350, 1296, 1004, 3753
211, -35, 75, 110, -44, 233, -91, -14, 18, 350, 1279, 984, 3764
212, -188, 193, 131, -145, 136, -52, -14, 18, 350, 1268, 971, 3771
213, -132, 157, 177, -427, -139, 85, -14, 17, 349, 1255, 951, 3780
214, 228, -411, 50, -6, 450, 252, -14, 18, 349, 1287, 968, 3765
215, 77, -440, 171, -184, 289, 85, -14, 18, 349, 1324, 976, 3750
216, 48, -543, 149, -28, 371, -19, -14, 20, 349, 1402, 982, 3720
217, -115, -322, 249, -195, -21, -35, -14, 21, 349, 1486, 968, 3691
218, -113, -363, 271, -596, -43, -259, -14, 21, 348, 1504, 957, 3687
219, -160, -500, -42, 149, 4, 178, -14, 22, 348, 1555, 942, 3669
220, -67, 629, 48, 536, -494, 567, -14, 22, 349, 1567, 921, 3670
221, -34, 535, 80, -958, 322, 151, -14, 21, 349, 1512, 922, 3692
222, -336, -859, -93, -647, -331, -463, -13, 22, 349, 1545, 899, 3684
223, -114, -1063, -279, 608, -670, -1036, -13, 25, 350, 1728, 864, 3611
224, 95, -637, -106, -371, -693, -463, -13, 25, 350, 1783, 867, 3583
225, 179, -1302, -277, -275, -588, -191, -14, 27, 350, 1862, 886, 3538
226, 465, -325, -484, 2254, -667, 77, -15, 29, 351, 2008, 957, 3438
227, 365, 501, -107, -1477, -31, 575, -16, 28, 352, 1957, 1018, 3450
228, 529, -1008, -383, -1179, -648, -592, -17, 29, 352, 1999, 1051, 3416
229, 993, -1367, -766, 1541, 154, -728, -20, 32, 353, 2167, 1229, 3250
230, 1068, -751, -666, 1775, 459, 305, -23, 33, 354, 2226, 1347, 3162
231, 591, -586, -335, -907, 326, 815, -25, 33, 354, 2247, 1462, 3096
232, 1178, -1012, -815, 1621, 1191, -66, -29, 35, 356, 2358, 1643, 2918
233, 650, 186, -495, -278, 9, 846, -32, 35, 357, 2344, 1768, 2854
234, 767, -58, -437, -416, 363, 764, -33, 34, 357, 2309, 1862, 2823
235, 542, 53, -207, -508, 119, -213, -35, 34, 357, 2290, 1955, 2776
236, 583, 115, -109, -355, 316, 310, -36, 33, 357, 2272, 2014, 2748
237, 430, -85, -133, -1189, 123, 340, -37, 33, 357, 2262, 2048, 2731
238, 292, 92, -95, 170, 309, -37, -38, 33, 357, 2267, 2109, 2680
239, 156, 235, -24, -348, 131, 416, -38, 33, 357, 2238, 2131, 2687
240, 88, 41, 6, -72, 128, 113, -38, 33, 357, 2226, 2142, 2688
241, 53, 83, 10, 112, 210, -4, -38, 33, 357, 2222, 2149, 2686
242, -25, 157, 37, -7, 66, 98, -38, 32, 357, 2215, 2147, 2693
243, 39, -41, 29, -88, 19, 36, -38, 32, 356, 2213, 2145, 2697
244, 51, -33, 49, 69, 58, 29, -38, 33, 356, 2224, 2147, 2686
245, 24, -17, 40, -20, 78, -176, -38, 33, 356, 2230, 2148, 2680
246, 47, 59, 16, 39, 106, -9, -38, 33, 356, 2229, 2149, 2680
247, 35, 28, 8, 9, 78, -46, -38, 33, 356, 2226, 2152, 2680
248, 28, 45, -9, -77, 101, -57, -38, 33, 356, 2222, 2155, 2681
249, 22, 24, -8, -33, 87, -49, -39, 33, 356, 2219, 2158, 2681
250, 22, 24, -8, -33, 87, -49, -39, 33, 356, 2219, 2158, 2681
251, 31, -3, -8, -19, 79, -39, -39, 32, 356, 2215, 2163, 2680
252, 4, 33, 2, -76, 60, 54, -39, 32, 356, 2210, 2166, 2682
253, 4, 31, 2, 24, 66, 33, -39, 32, 356, 2207, 2169, 2683
254, -12, 24, 19, -56, 48, 51, -39, 32, 356, 2205, 2168, 2685
255, -20, 19, 27, -16, 49, 32, -39, 32, 356, 2205, 2166, 2686
256, -141, 87, 110, 200, 80, 364, -38, 32, 356, 2204, 2151, 2700
257, -224, 129, 143, 252, 17, 529, -38, 32, 356, 2202, 2125, 2721
258, -400, 250, 75, 251, 254, 75, -37, 32, 356, 2196, 2092, 2752
259, -463, 268, 127, -141, 248, -197, -36, 32, 355, 2167, 2032, 2819
260, -428, 42, 157, -974, -224, -388, -34, 32, 355, 2161, 1977, 2862
261, -337, -73, 91, -620, -170, -329, -34, 32, 355, 2165, 1960, 2871
262, -355, 125, 185, 9, 124, -375, -33, 32, 355, 2175, 1921, 2890
263, -498, 176, 239, -194, 65, -287, -32, 32, 355, 2172, 1860, 2931
264, -461, 31, 199, -605, -332, -172, -31, 32, 355, 2173, 1818, 2957
265, -215, 144, 141, 383, 227, 57, -31, 32, 355, 2180, 1778, 2976
266, -339, 11, 244, -355, -8, 137, -30, 32, 355, 2184, 1727, 3003
267, -242, -98, 170, -489, -31, -1, -29, 32, 355, 2191, 1707, 3009
268, -306, 228, 134, 573, 347, -176, -29, 32, 354, 2208, 1670, 3017
269, -462, 444, 175, 21, 155, -166, -28, 32, 354, 2188, 1634, 3052
270, -357, 313, 48, 76, 49, -5, -27, 32, 354, 2158, 1589, 3096
271, -278, 470, 85, -321, -63, 75, -26, 31, 354, 2112, 1540, 3152
272, -175, 156, 100, 120, 110, -13, -25, 30, 354, 2075, 1493, 3199
273, -141, 303, 114, -157, 67, 174, -24, 30, 353, 2043, 1452, 3238
274, -142, 162, 91, 52, 109, 31, -24, 29, 353, 2031, 1439, 3252
275, -150, 172, 127, -70, 110, -51, -23, 29, 353, 2022, 1425, 3263
276, -179, 124, 133, -178, -18, -53, -22, 29, 353, 2011, 1386, 3287
277, -158, 129, 81, 137, 175, 171, -22, 29, 353, 2005, 1371, 3297
278, -224, 91, 121, -18, 21, -9, -22, 29, 353, 1998, 1345, 3312
279, -240, 456, 84, -72, 2, 71, -21, 28, 352, 1958, 1294, 3356
280, -197, 321, 10, -36, 249, 107, -20, 28, 352, 1916, 1269, 3389
281, -251, 255, 14, -132, 125, 106, -20, 27, 352, 1896, 1253, 3407
282, -195, 189, -25, 136, 150, 130, -19, 27, 352, 1867, 1225, 3433
283, -248, 215, -30, 160, 29, 42, -19, 27, 352, 1849, 1208, 3448
284, -189, 240, -32, 96, 28, 82, -19, 26, 352, 1830, 1191, 3465
285, -111, 55, -59, -123, -53, 88, -18, 26, 353, 1799, 1170, 3488
286, -57, -19, -62, 44, 2, 176, -18, 26, 353, 1798, 1168, 3489
287, 97, -187, -132, 376, 22, 108, -18, 26, 353, 1818, 1176, 3476
288, 97, -187, -132, 376, 22, 108, -18, 26, 353, 1818, 1176, 3476
289, 58, -14, 135, 42, -74, -151, -18, 26, 353, 1815, 1185, 3474
290, 46, 69, -11, -23, -171, 16, -18, 26, 353, 1816, 1185, 3474
291, 17, 98, 20, -55, -98, 130, -18, 26, 353, 1809, 1189, 3476
292, 65, -15, -7, 49, -180, 57, -18, 26, 353, 1806, 1191, 3477
293, 42, -42, -58, 276, -8, -30, -19, 26, 353, 1809, 1200, 3472
294, -67, 177, 103, 196, -100, -388, -19, 26, 353, 1806, 1201, 3473
295, -191, 440, 231, -11, -43, -502, -18, 26, 352, 1784, 1183, 3491
296, -151, 216, 208, -607, -336, -189, -18, 25, 352, 1759, 1160, 3511
297, 197, -253, -139, 1007, -235, 95, -18, 26, 352, 1796, 1172, 3489
298, 137, 318, -53, 589, -77, -166, -18, 26, 352, 1786, 1189, 3488
299, 54, 186, -252, -113, -178, 39, -19, 25, 352, 1744, 1208, 3503
300, 290, -82, -498, 20, -303, -181, -20, 24, 353, 1719, 1273, 3492
301, 198, 147, -628, 259, -59, -46, -20, 24, 354, 1700, 1318, 3485
302, 31, 324, -575, 229, -52, -34, -21, 24, 354, 1669, 1344, 3490
303, -159, 367, -559, -475, -631, -395, -21, 22, 356, 1578, 1360, 3526
304, 60, 424, -796, -356, -239, -19, -21, 21, 357, 1491, 1393, 3550
305, 138, 103, -926, -663, -235, 338, -21, 20, 358, 1441, 1425, 3558
306, 969, -3906, -1207, -703, -480, 418, -24, 23, 2, 1622, 1577, 3413
307, 1347, -5784, -1307, -416, -300, -319, -28, 28, 4, 1926, 1709, 3184
308, 1534, -6439, -985, -979, 394, -284, -34, 34, 7, 2327, 1884, 2794
309, 1231, -5373, -749, 676, 316, -6, -52, 47, 14, 3032, 2190, 1668
310, 415, -1886, -238, 1858, 1042, -246, -61, 50, 16, 3175, 2286, 1209
311, -642, 714, 25, 2031, 1248, -649, -62, 50, 17, 3183, 2285, 1191
312, -2441, 4642, 194, 560, 628, -910, -50, 46, 16, 2981, 2164, 1789
313, -2610, 5162, 368, -649, 333, -866, -41, 42, 15, 2753, 2022, 2259
314, -2648, 5142, 417, -887, 407, -975, -36, 38, 14, 2566, 1906, 2559
315, -2370, 4012, 184, -1102, 298, -1114, -23, 27, 12, 1848, 1476, 3343
316, -1927, 2590, 434, -1611, 24, -956, -18, 21, 11, 1481, 1220, 3618
317, -1810, 2074, 467, -2155, -235, -708, -17, 19, 11, 1379, 1124, 3688
318, -1053, -853, 72, -208, -52, -59, -12, 19, 11, 1360, 844, 3769
319, -713, -740, -263, 632, 368, 79, -11, 20, 11, 1443, 778, 3753
320, -774, -354, 47, 274, 738, 223, -11, 21, 12, 1480, 728, 3748
321, -994, -448, 330, -286, 347, 277, -7, 22, 11, 1550, 521, 3755
322, -914, -563, 285, -217, 126, 66, -6, 23, 11, 1610, 404, 3744
323, -921, -523, 311, -210, 88, 259, -4, 23, 11, 1655, 322, 3732
324, -941, -505, 530, 295, -97, 579, -2, 25, 11, 1744, 130, 3703
325, -922, -438, 650, -5, -55, 295, 0, 26, 10, 1798, -14, 3679
326, -959, -375, 683, 260, -335, -189, 0, 26, 10, 1815, -64, 3671
327, -775, -702, 697, -478, -156, -135, 4, 27, 8, 1902, -313, 3613
328, -430, -756, 409, 618, -414, 638, 7, 30, 7, 2047, -491, 3513
329, -88, -527, 308, 659, -61, 652, 9, 31, 6, 2131, -551, 3453
330, 21, -493, 314, 404, -58, 231, 9, 32, 6, 2182, -576, 3417
331, 40, -470, 283, 310, -16, 17, 9, 32, 5, 2202, -583, 3403
332, 28, -518, 165, -160, -120, -260, 10, 33, 5, 2270, -602, 3355
333, -34, -662, 178, -106, 26, 12, 10, 35, 4, 2335, -611, 3308
334, -48, -682, 195, 15, -82, 71, 10, 35, 4, 2369, -621, 3282
335, -28, -646, 222, -83, -2, -92, 11, 37, 3, 2466, -648, 3205
336, -58, -599, 242, 43, -118, -54, 11, 38, 3, 2510, -667, 3166
337, -27, -509, 213, 202, -67, 44, 12, 38, 2, 2540, -680, 3139
338, -27, -376, 58, 391, 47, 138, 12, 39, 2, 2609, -702, 3078
339, 32, -259, 30, 238, -6, 47, 13, 40, 2, 2640, -704, 3051
340, 9, -200, 16, 75, 23, -60, 13, 40, 2, 2653, -704, 3039
341, 58, -185, -7, -10, -16, -32, 13, 40, 2, 2676, -701, 3020
342, 73, -210, 0, -12, 19, 6, 13, 41, 2, 2690, -695, 3008
343, 68, -230, -20, 48, 35, 45, 12, 41, 2, 2704, -690, 2997
344, 30, -82, -29, 41, 56, -32, 12, 41, 2, 2731, -675, 2975
345, 9, -76, -24, 17, 60, -41, 12, 41, 2, 2739, -671, 2969
346, 6, -72, -17, 23, 27, -11, 12, 42, 2, 2742, -670, 2967
347, 23, -100, -16, 24, 31, 24, 12, 42, 2, 2754, -665, 2956
348, 9, -56, -11, 101, 56, -1, 12, 42, 2, 2761, -662, 2951
349, -2, -29, -8, 49, 41, 0, 12, 42, 2, 2764, -662, 2949
350, 4, -25, -18, 35, 14, 43, 12, 42, 2, 2767, -660, 2946
351, 10, -61, -24, -12, 0, 55, 12, 42, 2, 2771, -657, 2943
352, 19, -56, -36, 20, 26, -5, 12, 42, 2, 2778, -652, 2937
353, 7, -13, -36, 7, 40, 30, 12, 42, 2, 2782, -646, 2934
354, 1, 3, -30, 24, 22, 42, 12, 42, 2, 2783, -644, 2934
355, 4, -1, -21, -45, 7, 45, 12, 42, 2, 2783, -642, 2935
356, 0, -23, -7, -21, 40, -24, 12, 42, 2, 2787, -638, 2932
357, -21, -21, 2, 11, 21, 18, 12, 42, 2, 2789, -639, 2930
358, -15, -11, 4, 15, 10, 27, 12, 42, 2, 2790, -640, 2928
359, -30, -15, 3, -1, 12, 17, 12, 42, 2, 2791, -643, 2927
360, -7, -21, -5, -4, 17, 15, 12, 42, 2, 2793, -644, 2925
361, -11, -26, -13, -1, 9, 37, 12, 42, 2, 2794, -644, 2924
362, -4, 1, -1, -15, 27, 37, 12, 42, 2, 2795, -644, 2923
363, -2, 3, 4, -32, 20, 7, 12, 42, 2, 2794, -643, 2924