time,attitude_roll,attitude_pitch,attitude_yaw,gravity_x,gravity_y,gravity_z,rotationRate_x,rotationRate_y,rotationRate_z,userAcceleration_x,userAcceleration_y,userAcceleration_z
91, -3, 3, 0, -1, 29, 18, 0, 0, 0, 0, 0, 0
93, 1, -8, -2, 3, 41, 13, 17, 42, 322, 2762, -897, 2887
95, -3, -4, -4, 10, 30, 0, 17, 42, 322, 2765, -894, 2886
97, -6, -17, -7, -9, 36, 5, 17, 42, 322, 2767, -892, 2884
99, 1, -4, 2, -3, 37, 14, 17, 42, 322, 2771, -891, 2881
100, 0, -1, 3, 6, 38, 2, 17, 42, 322, 2772, -889, 2881
101, 5, -8, -4, -25, 28, 8, 17, 42, 322, 2773, -887, 2880
102, 7, -14, -5, -8, 36, -2, 17, 42, 322, 2775, -885, 2879
103, 0, 0, -5, 2, 37, -12, 17, 42, 322, 2777, -882, 2878
104, -1, 4, 0, -15, 34, -8, 17, 42, 322, 2776, -881, 2879
105, -7, 0, 0, 6, 21, 6, 17, 42, 322, 2776, -880, 2879
106, -19, 14, -1, -24, 32, 3, 17, 42, 322, 2775, -881, 2879
107, -16, 2, 19, 29, 14, 42, 17, 42, 322, 2773, -886, 2880
108, -2, -8, -10, 59, 55, 2, 17, 42, 322, 2774, -887, 2879
109, -4, 8, -22, -43, 43, -30, 17, 42, 322, 2775, -885, 2879
110, -15, 22, -9, 14, 67, -18, 17, 42, 322, 2774, -883, 2880
111, -38, 63, -8, 78, 6, 53, 17, 42, 322, 2767, -887, 2885
112, -5, 54, -41, -88, -46, 149, 17, 42, 322, 2759, -888, 2893
113, -99, 81, -81, 157, 66, 303, 17, 42, 322, 2754, -885, 2898
114, 115, -100, -285, 2, -12, 250, 16, 42, 323, 2761, -863, 2899
115, 526, -119, -657, 119, 45, 28, 15, 42, 324, 2787, -796, 2893
116, 684, 429, -741, 582, 550, 388, 12, 43, 325, 2798, -637, 2922
117, 456, 632, -531, 347, 695, 711, 8, 41, 326, 2720, -473, 3025
118, 406, 563, -308, 279, 526, 501, 6, 40, 327, 2642, -357, 3109
119, 800, 405, -727, 357, 889, 657, 2, 39, 328, 2588, -159, 3170
120, 725, 545, -563, 270, 754, 296, 0, 38, 329, 2526, 20, 3224
121, 963, 253, -673, -106, 521, 208, -3, 37, 329, 2460, 221, 3267
122, 952, -101, -826, -20, 571, -91, -8, 36, 331, 2441, 483, 3253
123, 817, -253, -764, -399, 258, -387, -13, 36, 332, 2443, 742, 3202
124, 872, -872, -372, -790, 49, -259, -16, 37, 333, 2489, 921, 3119
125, 895, -1847, -533, -754, -141, -407, -20, 40, 334, 2649, 1087, 2928
126, 945, -2052, 401, 552, -312, -404, -25, 44, 334, 2866, 1237, 2650
127, 559, -1669, 124, 127, -65, -139, -30, 49, 334, 3118, 1336, 2294
128, 130, -968, 196, 133, -161, -459, -33, 53, 334, 3289, 1326, 2047
129, 79, -696, 385, -129, -179, 8, -34, 54, 334, 3363, 1310, 1934
130, -63, -467, 486, -10, -25, -260, -34, 56, 333, 3432, 1251, 1851
131, -472, 53, 208, -168, -64, -407, -31, 57, 332, 3478, 1135, 1839
132, -778, 206, 142, 243, -2, -360, -29, 57, 333, 3475, 1054, 1893
133, -1017, 10, -581, -306, -440, -411, -27, 57, 334, 3457, 1000, 1955
134, -1069, -85, -374, 879, 558, -211, -27, 56, 337, 3433, 1015, 1989
135, -711, -93, 301, -123, -381, -317, -25, 56, 339, 3436, 941, 2020
136, -695, 302, -286, -48, -608, -17, -23, 56, 340, 3435, 867, 2054
137, -786, 170, 619, -110, -247, 161, -21, 56, 341, 3413, 823, 2108
138, -51, -172, 747, -254, -746, 141, -17, 56, 339, 3441, 675, 2115
139, -422, 344, 242, -33, -382, 301, -14, 57, 338, 3449, 546, 2139
140, -193, 458, 241, -107, -611, 229, -12, 56, 338, 3418, 484, 2203
141, -20, 332, 273, -108, -296, 217, -10, 55, 337, 3382, 435, 2268
142, -250, 285, 210, -49, -503, 172, -9, 54, 337, 3345, 372, 2333
143, 55, 58, 124, -435, -288, 182, -8, 54, 336, 3328, 348, 2361
144, -6, -62, 129, 250, -73, 11, -8, 54, 336, 3339, 336, 2347
145, -5, 252, 17, 114, -143, 143, -7, 53, 336, 3320, 320, 2376
146, -124, 226, 2, -152, -80, 267, -7, 52, 336, 3281, 318, 2430
147, -129, 137, -55, 89, -233, 226, -7, 52, 336, 3264, 307, 2454
148, -224, 306, -145, 272, -647, 196, -6, 51, 336, 3235, 292, 2494
149, 84, 108, -369, 467, -729, 486, -7, 51, 337, 3209, 314, 2525
150, 244, -75, -677, 367, -727, 551, -9, 51, 338, 3203, 405, 2520
151, 278, -12, -968, 354, -824, 296, -12, 50, 340, 3187, 570, 2508
152, 290, 103, -1097, 219, -873, 405, -17, 49, 343, 3142, 771, 2510
153, 470, 390, -1232, 443, -882, 81, -20, 48, 345, 3074, 958, 2530
154, 552, 667, -1159, 7, -788, 200, -25, 45, 348, 2919, 1221, 2600
155, 641, 1084, -1122, 587, -396, 82, -28, 42, 350, 2761, 1449, 2655
156, 671, 1030, -1030, 106, -438, 666, -31, 37, 351, 2499, 1680, 2776
157, 993, 1363, -871, -174, 91, -313, -33, 33, 352, 2269, 1869, 2850
158, 380, 1895, -900, 298, 97, 173, -36, 27, 353, 1871, 2133, 2953
159, 691, 1999, -835, -87, 537, -557, -36, 21, 353, 1508, 2276, 3052
160, 238, 2113, -846, 145, 109, -345, -37, 16, 353, 1182, 2384, 3112
161, 572, 1819, -673, -639, 141, -344, -38, 11, 353, 794, 2478, 3162
162, 425, 1564, -457, -394, 252, -685, -39, 5, 353, 405, 2601, 3137
163, 593, 1091, -356, -492, 460, -531, -41, 1, 353, 143, 2685, 3089
164, 665, 887, -209, -374, 649, -692, -42, 0, 353, 4, 2762, 3024
165, 669, 1117, -306, 155, 676, -512, -43, -2, 353, -154, 2852, 2935
166, 681, 1352, -470, -147, 533, -517, -46, -6, 352, -460, 2972, 2779
167, 686, 1283, -546, 61, 502, -403, -48, -8, 352, -620, 3025, 2689
168, 646, 1368, -680, -6, 338, -393, -50, -12, 352, -917, 3096, 2518
169, 716, 1277, -370, -293, 256, -217, -52, -15, 352, -1105, 3145, 2378
170, 626, 928, -749, -226, 64, -362, -54, -19, 353, -1373, 3172, 2197
171, 544, 920, -807, 1, 11, -217, -57, -23, 355, -1636, 3178, 1999
172, 485, 740, -701, -352, 23, -152, -58, -26, 356, -1791, 3165, 1882
173, 403, 561, -600, -116, 38, -291, -60, -28, 357, -1916, 3151, 1780
174, 319, 429, -526, 23, 10, -58, -61, -30, 358, -2064, 3120, 1665
175, 292, 514, -547, 85, 22, -15, -62, -32, 0, -2177, 3090, 1575
176, 251, 631, -532, -54, -67, -27, -63, -34, 0, -2293, 3054, 1478
177, 177, 665, -480, 85, -129, -143, -65, -36, 1, -2403, 3015, 1381
178, 139, 731, -447, 51, -30, -92, -66, -38, 2, -2535, 2961, 1254
179, 124, 569, -381, -39, -121, -124, -67, -39, 2, -2618, 2923, 1171
180, 87, 419, -276, 70, -143, -169, -69, -41, 2, -2687, 2889, 1096
181, 88, 415, -253, 209, -24, -185, -70, -42, 3, -2747, 2858, 1027
182, 50, 340, -212, 95, -122, -213, -71, -43, 3, -2803, 2827, 960
183, 55, 235, -192, 179, -104, -120, -71, -43, 3, -2837, 2806, 922
184, 13, 87, -134, 150, -107, -197, -72, -44, 3, -2863, 2787, 897
185, 21, -56, -77, 9, -97, -156, -72, -44, 3, -2879, 2773, 891
186, 6, -167, -8, 162, -163, -191, -71, -44, 4, -2877, 2768, 910
187, -41, -104, 34, 134, -122, -208, -71, -44, 4, -2871, 2769, 929
188, -82, -430, 169, 89, -308, -331, -70, -43, 4, -2851, 2777, 965
189, -192, -808, 432, 348, -580, -481, -69, -42, 4, -2782, 2810, 1065
190, -361, -1144, 843, 199, -698, -743, -66, -40, 3, -2630, 2884, 1239
191, -448, -1715, 1189, -154, -753, -476, -63, -36, 2, -2422, 2968, 1447
192, -464, -2687, 1694, -566, -462, -689, -60, -29, 1, -2030, 3091, 1759
193, -420, -3426, 2175, -134, -768, -800, -56, -19, 359, -1340, 3229, 2132
194, -301, -2946, 2063, 422, -96, -653, -54, -7, 357, -566, 3303, 2354
195, -289, -2349, 1915, 571, -232, -470, -53, 0, 356, -25, 3293, 2435
196, -546, -1848, 2185, 527, 691, -36, -52, 5, 354, 422, 3246, 2461
197, -882, -1377, 1612, 149, 660, -276, -50, 12, 351, 879, 3091, 2538
198, -922, -1393, 1152, 286, 857, 204, -47, 18, 350, 1305, 2884, 2598
199, -697, -1223, 1112, -125, 1301, 51, -46, 23, 348, 1597, 2726, 2605
200, -770, -1190, 834, 204, 1109, 224, -44, 26, 348, 1820, 2589, 2599
201, -667, -896, 498, -324, 618, -29, -42, 30, 347, 2062, 2393, 2606
202, -666, -1326, 674, 49, 607, -326, -41, 34, 347, 2306, 2241, 2535
203, -462, -1055, 766, -84, 529, -75, -40, 37, 347, 2488, 2105, 2480
204, -457, -1475, 766, 252, 220, -413, -40, 41, 346, 2719, 1967, 2347
205, 113, 1304, 1737, -811, -1665, 6822, -37, 45, 345, 2904, 1765, 2286
206, -482, -1287, 858, 666, -403, -771, -37, 49, 344, 3122, 1591, 2119
207, -582, 25, 813, 136, -228, -104, -34, 51, 343, 3212, 1443, 2091
208, -616, -472, 789, 524, -779, 25, -30, 53, 341, 3308, 1225, 2079
209, -425, 308, 828, 137, -694, 592, -26, 54, 339, 3345, 1034, 2123
210, -466, 47, 663, 224, -688, 410, -21, 55, 338, 3376, 835, 2162
211, -244, 228, 696, 269, -641, 457, -17, 55, 336, 3389, 691, 2193
212, -131, 415, 596, 201, -1038, 51, -13, 54, 335, 3362, 551, 2273
213, -482, 424, 760, 38, -544, 143, -10, 54, 334, 3329, 445, 2343
214, -151, 171, 413, -8, -511, 132, -8, 53, 333, 3301, 365, 2396
215, 158, -1, 167, 514, -373, 178, -7, 53, 332, 3294, 301, 2415
216, -138, 356, 240, 2, -211, 95, -6, 52, 332, 3262, 289, 2459
217, 93, 367, 367, 253, -357, -179, -4, 51, 331, 3233, 205, 2505
218, -313, 157, 322, 58, -528, 350, -3, 51, 330, 3196, 136, 2557
219, -75, -30, 163, 330, -177, 491, -1, 51, 330, 3196, 87, 2559
220, -451, -257, 252, -1347, -1122, -221, 0, 50, 330, 3193, 6, 2564
221, 158, -350, -808, 1018, -910, 57, 0, 52, 330, 3261, 30, 2477
222, 154, 2, -1065, 481, -802, 68, -4, 52, 332, 3269, 198, 2458
223, 329, 182, -1853, 1101, -1042, 283, -11, 51, 338, 3226, 513, 2470
224, 196, 1009, -2118, 832, -1537, -277, -19, 48, 343, 3062, 886, 2571
225, 451, 1446, -2338, 611, -1154, 85, -23, 43, 348, 2843, 1189, 2696
226, 326, 1235, -2259, -225, -2013, -12, -27, 39, 351, 2611, 1427, 2813
227, 934, 1131, -1746, -1297, -404, -550, -31, 33, 356, 2239, 1803, 2917
228, 146, 338, -1157, -765, -1192, -999, -34, 29, 359, 2001, 2031, 2939
229, 473, 187, -514, -1025, -51, -1429, -36, 27, 1, 1887, 2152, 2929
230, -686, 604, 293, -1100, -170, -1408, -35, 26, 1, 1810, 2143, 2983
231, -1045, 347, 1089, -1106, 868, -75, -33, 26, 359, 1811, 1991, 3086
232, -1311, 507, 718, -798, 383, -531, -29, 25, 359, 1777, 1781, 3231
233, -1168, -354, 2080, -1356, 1358, 14, -24, 26, 355, 1838, 1509, 3334
234, -1262, -202, 1296, 855, 498, -74, -19, 29, 352, 2016, 1198, 3357
235, -1147, 1414, 2285, -835, 1574, 538, -13, 27, 348, 1902, 856, 3524
236, -1407, 602, 1835, -128, 883, 273, -6, 26, 343, 1823, 439, 3640
237, -811, -131, 1048, -371, 922, 470, -2, 25, 340, 1778, 146, 3686
238, -235, -780, 613, 972, 746, 846, 0, 27, 338, 1907, -28, 3624
239, -193, 49, 847, 133, 315, 530, 1, 28, 336, 1945, -124, 3601
240, -26, -739, 543, 66, 51, 453, 3, 29, 334, 1994, -202, 3571
241, -115, -678, 459, 796, -11, 234, 4, 31, 333, 2146, -265, 3477
242, 13, -438, 289, -89, -147, 81, 5, 32, 332, 2214, -332, 3429
243, 22, -664, 243, 136, 108, 125, 5, 34, 331, 2318, -352, 3358
244, 62, -586, 251, -46, 133, 145, 6, 36, 330, 2414, -372, 3287
245, 71, -706, 281, 37, 171, 100, 6, 37, 329, 2484, -386, 3233
246, 41, -522, 298, 233, 283, -4, 7, 38, 328, 2565, -406, 3166
247, -133, -397, 224, 302, 101, -63, 8, 40, 328, 2634, -453, 3102
248, -110, -209, 137, 23, 14, 60, 9, 40, 327, 2672, -490, 3064
249, -36, -219, 138, -69, -41, -32, 9, 41, 327, 2708, -527, 3027
250, -40, -230, 65, 106, 80, -40, 10, 41, 327, 2733, -538, 3002
251, -67, -155, 90, 20, 88, 0, 10, 42, 326, 2756, -556, 2978
252, -68, -167, 100, 14, 123, 36, 11, 42, 326, 2772, -575, 2958