time,attitude_roll,attitude_pitch,attitude_yaw,gravity_x,gravity_y,gravity_z,rotationRate_x,rotationRate_y,rotationRate_z,userAcceleration_x,userAcceleration_y,userAcceleration_z
1126, -20, 17, 13, 115, 236, 49, 0, 0, 0, 0, 0, 0
1128, -19, 19, 2, 92, 216, 65, 19, 21, 326, 1488, -1297, 3588
1130, -34, 32, 0, 90, 205, 39, 20, 21, 326, 1479, -1303, 3589
1132, -42, 40, 8, 107, 192, 42, 20, 21, 326, 1468, -1311, 3591
1134, -58, 56, 22, 34, 206, 15, 20, 20, 326, 1450, -1325, 3593
1135, -72, 40, 17, 18, 223, 6, 20, 20, 326, 1440, -1336, 3593
1136, -62, 33, 28, 26, 189, 93, 20, 20, 326, 1431, -1350, 3592
1137, -52, 35, 36, 37, 173, 62, 20, 20, 326, 1424, -1358, 3591
1138, -36, 2, 29, 2, 188, 50, 20, 20, 326, 1419, -1365, 3591
1139, -37, -14, 48, 62, 200, 39, 21, 20, 326, 1419, -1373, 3587
1140, -44, -16, 58, 50, 202, 58, 21, 20, 326, 1418, -1383, 3584
1141, -35, -29, 54, 58, 195, 54, 21, 20, 325, 1419, -1391, 3581
1142, -43, -21, 43, 65, 165, 35, 21, 20, 325, 1420, -1399, 3577
1143, -46, -18, 35, 26, 156, 32, 21, 20, 325, 1422, -1406, 3574
1144, 6, -30, 10, -3, 114, 42, 21, 20, 325, 1424, -1412, 3570
1145, -59, -11, 89, 99, 277, -19, 21, 20, 325, 1426, -1415, 3568
1146, -89, 8, 136, 99, 169, 48, 22, 20, 325, 1417, -1438, 3563
1147, -106, 15, 151, 154, 289, 72, 22, 20, 324, 1407, -1460, 3558
1148, -129, 13, 114, 91, 204, 10, 22, 20, 324, 1395, -1488, 3551
1149, -115, -7, 121, 32, 209, -75, 23, 19, 324, 1389, -1512, 3543
1150, -173, -9, 148, -33, 197, -7, 23, 19, 324, 1381, -1543, 3533
1151, -129, -129, 191, 37, 107, 143, 24, 19, 323, 1380, -1583, 3516
1152, -65, -143, 214, 194, 13, 282, 24, 19, 322, 1392, -1614, 3497
1153, 29, -168, 197, -108, -22, 154, 25, 20, 322, 1397, -1630, 3487
1154, 207, -374, 92, -140, -93, 363, 25, 20, 321, 1425, -1623, 3479
1155, 635, -905, 119, -519, -296, 830, 24, 21, 320, 1521, -1551, 3472
1156, 1409, -1546, -115, -243, -444, 745, 22, 24, 319, 1691, -1419, 3449
1157, 2551, -2698, -486, -416, 198, 805, 17, 30, 318, 2069, -1031, 3380
1158, 3154, -2530, -886, 194, 556, 449, 9, 37, 316, 2500, -535, 3199
1159, 3851, -2642, -719, 75, 1013, 634, -1, 43, 315, 2838, 55, 2952
1160, 3230, -1494, -390, 114, 1023, 174, -14, 48, 313, 3093, 650, 2604
1161, 2704, -542, 169, -614, 669, -51, -24, 51, 309, 3206, 1069, 2313
1162, 2085, -464, 193, -955, 403, -53, -30, 52, 306, 3263, 1248, 2136
1163, 1509, 458, 283, -272, 238, -525, -34, 52, 303, 3270, 1383, 2040
1164, 1384, 113, 883, -928, -213, -174, -34, 53, 298, 3293, 1381, 2005
1165, 1070, 906, 1662, 538, -245, -644, -34, 54, 292, 3355, 1324, 1939
1166, 330, 679, 1515, -613, -86, -371, -27, 55, 285, 3392, 1045, 2042
1167, 510, 71, 1060, 698, -599, -1004, -24, 56, 282, 3431, 906, 2045
1168, 349, 1432, 1129, 302, 185, -149, -19, 55, 278, 3376, 778, 2184
1169, -384, 1231, 1444, -182, -430, -170, -11, 52, 273, 3270, 485, 2417
1170, 92, 505, 1113, -427, 12, -10, -7, 51, 270, 3200, 315, 2537
1171, -107, -421, 1731, 48, -492, -346, -1, 52, 265, 3245, 63, 2498
1172, 193, -317, 919, -44, -72, -258, 1, 53, 263, 3284, -80, 2445
1173, 95, -301, 755, 27, -134, -404, 4, 53, 260, 3312, -182, 2402
1174, 112, -206, 775, -138, -267, -153, 6, 53, 258, 3326, -284, 2372
1175, 342, -233, 537, 115, -747, -444, 9, 54, 256, 3350, -387, 2323
1176, 471, 56, 397, -94, -376, 685, 10, 54, 254, 3349, -418, 2320
1177, 173, 347, -440, -28, 936, 768, 9, 54, 254, 3328, -385, 2355
1178, 128, 343, 159, 131, -17, -7, 8, 53, 253, 3294, -354, 2408
1179, 91, 105, 258, 92, -534, -161, 8, 52, 253, 3259, -385, 2450
1180, -185, 135, 30, 651, 202, -23, 8, 52, 253, 3251, -383, 2461
1181, 29, -79, -22, 27, -360, -272, 9, 52, 253, 3242, -410, 2468
1182, -80, 331, -104, 522, -363, -334, 9, 51, 253, 3234, -408, 2479
1183, -158, -90, -209, -205, -384, -185, 8, 51, 254, 3211, -391, 2511
1184, -81, 371, -225, 107, -86, -91, 8, 51, 255, 3205, -375, 2521
1185, -59, 131, -332, 259, -369, -146, 7, 50, 255, 3187, -355, 2547
1186, 128, -298, -508, 510, -168, 134, 6, 51, 256, 3207, -286, 2531
1187, -19, -11, -724, 484, -161, 165, 4, 51, 258, 3235, -176, 2505
1188, 131, -17, -929, 539, -157, 88, 0, 52, 261, 3240, -29, 2505
1189, 312, -229, -1022, 706, -116, 74, -2, 52, 263, 3254, 129, 2483
1190, 206, -107, -1161, 682, -64, 124, -6, 52, 265, 3264, 301, 2455
1191, 102, 127, -1286, 622, -41, 154, -11, 52, 267, 3243, 489, 2452
1192, 145, 395, -1622, 637, -194, 0, -16, 50, 272, 3169, 734, 2488
1193, 83, 563, -1640, 367, -118, -20, -22, 47, 276, 3027, 1030, 2558
1194, 211, 385, -1701, 169, -265, -306, -26, 44, 280, 2864, 1305, 2620
1195, 164, 485, -1896, -34, -78, -286, -30, 41, 285, 2697, 1558, 2659
1196, 1, 448, -1637, -3, -322, -504, -33, 37, 289, 2487, 1798, 2711
1197, 195, 544, -1407, -286, -333, -597, -35, 34, 293, 2292, 1978, 2757
1198, 192, 325, -1706, -229, -402, -536, -38, 30, 297, 2080, 2169, 2782
1199, 183, 221, -1492, -155, -161, -640, -40, 27, 301, 1859, 2361, 2781
1200, 36, 265, -1181, -153, -173, -459, -41, 24, 304, 1676, 2482, 2793
1201, 13, 379, -1108, -116, -107, -437, -42, 21, 307, 1524, 2562, 2808
1202, -22, 319, -1099, -248, 39, -228, -42, 19, 309, 1354, 2631, 2831
1203, 112, 343, -1058, -174, -20, -315, -43, 16, 312, 1155, 2709, 2846
1204, 145, 183, -1109, -336, 131, -191, -44, 13, 315, 958, 2793, 2837
1205, 129, 242, -1045, -433, 228, -411, -45, 11, 317, 797, 2858, 2823
1206, -32, 267, -1145, -246, 251, -121, -45, 8, 320, 637, 2896, 2825
1207, 83, 266, -1153, -378, 320, 95, -46, 6, 322, 458, 2926, 2829
1208, 152, 182, -1005, -258, 389, -110, -46, 3, 325, 264, 2969, 2809
1209, 312, -45, -1038, -452, 318, 151, -47, 1, 328, 85, 3011, 2774
1210, 484, 140, -1007, -473, 480, -7, -48, 0, 331, -65, 3070, 2709
1211, 469, 488, -1008, -652, 172, -37, -49, -4, 334, -314, 3129, 2623
1212, 334, 365, -1013, -331, 55, -35, -50, -6, 336, -490, 3152, 2568
1213, 236, 902, -985, -377, 193, -277, -51, -9, 338, -706, 3162, 2504
1214, 191, 875, -926, -368, 79, -276, -52, -14, 340, -994, 3150, 2421
1215, 85, 1006, -786, -112, 65, -376, -52, -17, 341, -1244, 3118, 2345
1216, -42, 1000, -691, -341, 34, -264, -53, -20, 342, -1436, 3080, 2286
1217, -50, 988, -682, -226, 98, -169, -53, -23, 342, -1622, 3031, 2226
1218, -68, 1104, -740, -133, 208, -223, -53, -26, 343, -1827, 2969, 2148
1219, -99, 917, -631, -187, 169, -127, -54, -30, 343, -2088, 2873, 2038
1220, -86, 887, -586, -149, 187, -112, -54, -33, 344, -2242, 2809, 1962
1221, -88, 901, -550, -49, 82, -131, -55, -35, 344, -2379, 2748, 1887
1222, -93, 767, -462, -78, 75, -185, -55, -38, 344, -2518, 2682, 1799
1223, -48, 731, -428, 157, 148, -119, -56, -40, 345, -2638, 2621, 1716
1224, -78, 566, -380, 48, 59, -189, -57, -42, 345, -2751, 2558, 1631
1225, -59, 474, -362, 126, 90, -107, -57, -43, 345, -2848, 2497, 1558
1226, -21, 428, -341, 138, 132, -60, -58, -45, 345, -2912, 2453, 1509
1227, -3, 445, -318, 76, 57, -223, -58, -46, 346, -2983, 2405, 1445
1228, -44, 322, -131, -64, -42, -167, -60, -48, 346, -3094, 2331, 1328
1229, -26, 271, -70, 118, 22, -156, -60, -49, 346, -3124, 2316, 1283
1230, -2, 176, -42, 211, 55, -190, -61, -49, 346, -3140, 2310, 1256
1231, -9, 331, -92, 91, 66, -87, -61, -50, 346, -3157, 2301, 1227
1232, 41, 91, -41, -36, 48, -194, -62, -50, 346, -3181, 2290, 1184
1233, 30, 35, -39, 74, 47, -184, -62, -50, 346, -3187, 2288, 1173
1234, 9, 66, -311, 976, -7, -308, -62, -51, 346, -3196, 2282, 1160
1235, -10, -85, 1, -15, 41, -104, -62, -51, 346, -3201, 2274, 1163
1236, -20, -23, -6, 58, 92, -116, -62, -51, 346, -3199, 2273, 1171
1237, -23, -40, 16, -4, 46, -128, -62, -51, 346, -3196, 2273, 1177
1238, -16, -47, 44, -14, 49, -53, -62, -50, 346, -3191, 2277, 1184
1239, -2, -203, 88, 71, -55, -98, -61, -50, 346, -3176, 2288, 1204
1240, -20, -178, 103, 182, -62, -235, -61, -50, 346, -3158, 2300, 1228
1241, -67, -415, 189, 218, -230, -185, -60, -49, 346, -3118, 2323, 1284
1242, -2, -815, 313, 212, -9, -153, -59, -48, 346, -3061, 2353, 1364
1243, -2, -1227, 430, 50, -14, -186, -57, -45, 346, -2938, 2411, 1524
1244, -6, -1283, 498, -369, -46, -227, -55, -42, 346, -2787, 2474, 1698
1245, 68, -1875, 764, -114, -54, -56, -53, -39, 346, -2569, 2561, 1900
1246, 149, -2002, 926, -542, -41, -289, -51, -34, 346, -2298, 2663, 2097
1247, 274, -2212, 1239, -513, -153, -151, -50, -28, 346, -1911, 2802, 2295
1248, 378, -2213, 1365, -394, -104, -163, -50, -22, 345, -1529, 2932, 2416
1249, 456, -1873, 1357, -76, -136, -464, -50, -15, 345, -1112, 3062, 2481
1250, 582, -1542, 1302, 21, -201, -247, -52, -8, 343, -634, 3204, 2470
1251, 573, -1000, 1277, 34, 86, -678, -53, -4, 341, -304, 3302, 2403
1252, 563, -580, 1205, 104, -85, -478, -54, 0, 339, -52, 3367, 2331
1253, 365, -70, 1166, 65, 352, -221, -57, 3, 336, 229, 3442, 2207
1254, 294, 282, 1046, -158, 246, -210, -57, 4, 333, 343, 3454, 2173
1255, 321, 455, 1121, -493, 443, -217, -58, 6, 330, 489, 3470, 2119
1256, 45, 729, 1371, -777, 332, -258, -58, 8, 326, 623, 3456, 2107
1257, -327, 887, 1594, -1217, 347, -359, -56, 11, 319, 800, 3377, 2174
1258, -385, 754, 1791, -887, 198, -233, -55, 13, 314, 970, 3278, 2255
1259, -526, 454, 2022, -1051, 183, -102, -53, 16, 309, 1133, 3168, 2334
1260, -637, 413, 2206, -276, 16, -259, -49, 21, 302, 1475, 2928, 2454
1261, -847, 150, 2188, -323, -193, -262, -46, 24, 296, 1714, 2684, 2575
1262, -1400, 70, 2418, 210, 779, 282, -41, 28, 292, 1952, 2407, 2677
1263, -489, -933, 2053, 947, -370, -135, -37, 33, 286, 2273, 2058, 2714
1264, -495, -848, 1861, 255, -357, -105, -33, 38, 282, 2542, 1778, 2673
1265, -150, -204, 1592, 1135, -454, -4, -29, 43, 278, 2834, 1445, 2579
1266, -222, -741, 1205, 493, -67, -110, -26, 46, 274, 2962, 1240, 2541
1267, -84, -44, 983, 1182, -173, 40, -23, 48, 273, 3065, 1088, 2488
1268, -92, -102, 645, 387, 132, 11, -21, 49, 270, 3104, 953, 2495
1269, -437, 140, 1117, 147, -261, 76, -17, 50, 268, 3148, 786, 2498
1270, -239, 28, 498, -41, -320, -157, -13, 50, 266, 3151, 618, 2542
1271, -177, 65, 436, 308, 234, -87, -11, 50, 265, 3169, 537, 2538
1272, -366, 30, 699, 222, -174, -222, -8, 50, 264, 3177, 396, 2554
1273, -126, 297, 262, 46, -128, -168, -6, 50, 263, 3156, 300, 2592
1274, -231, 278, 364, 214, -174, -193, -4, 49, 262, 3132, 229, 2629
1275, -221, -61, 249, -30, -372, -182, -1, 49, 262, 3115, 82, 2657
1276, -239, 49, 145, 53, -120, -22, 0, 49, 261, 3119, 19, 2653
1277, -225, -19, 119, 117, -92, -78, 0, 49, 261, 3119, -16, 2654
1278, -156, -16, 84, -242, -154, 122, 1, 49, 261, 3113, -64, 2660
1279, -29, -80, 117, 236, -57, -109, 1, 49, 261, 3125, -84, 2646
1280, -61, -84, 34, 74, -32, 88, 2, 49, 261, 3135, -104, 2633
1281, 11, -6, -14, -441, -45, -125, 2, 49, 261, 3146, -101, 2620
1282, -78, 20, -2, 146, -183, -296, 2, 50, 261, 3157, -104, 2606
1283, -74, 52, 70, 85, -35, -291, 2, 50, 261, 3156, -120, 2607
1284, -42, -65, 156, 276, 201, 65, 3, 50, 261, 3165, -143, 2595
1285, -57, 34, 168, 268, 172, -21, 3, 50, 260, 3159, -175, 2600
1286, -9, -13, 166, 504, 103, 207, 4, 50, 260, 3157, -201, 2601
1287, 59, 178, 83, -249, -98, 321, 4, 49, 260, 3132, -225, 2629
1288, 71, 112, 3, 661, -351, -169, 5, 50, 259, 3149, -234, 2608
1289, 3, -351, -255, 124, -315, 47, 4, 50, 260, 3154, -214, 2603
1290, 197, -80, -505, 649, -94, -61, 3, 50, 260, 3192, -148, 2561
1291, 138, 114, -767, 347, -446, 87, 1, 50, 262, 3188, -51, 2570
1292, 186, 416, -1031, 802, -293, -289, -3, 50, 264, 3166, 178, 2591
1293, 281, 715, -1173, 186, -173, -319, -8, 48, 267, 3072, 379, 2682
1294, 355, 811, -1672, 487, -532, -236, -11, 46, 270, 2960, 574, 2771
1295, 457, 1051, -1546, 602, -111, -216, -16, 43, 273, 2813, 823, 2860
1296, 527, 902, -1700, 33, -343, -118, -21, 37, 277, 2502, 1167, 3024
1297, 300, 481, -1796, 99, -250, -419, -24, 34, 281, 2326, 1405, 3063
1298, 217, 398, -1886, 109, -295, -527, -27, 31, 285, 2152, 1610, 3090
1299, 223, 248, -1844, -55, -199, -303, -30, 29, 289, 1974, 1811, 3097
1300, 142, -177, -1662, -177, -54, -714, -34, 25, 295, 1752, 2056, 3078